{
  "resourceType": "Bundle",
  "type": "transaction",
  "entry": [
    {
      "resource": {
        "resourceType": "PractitionerRole",
        "id": "81417c6a-a6ab-453c-a26b-c08791161045",
        "meta": {
          "versionId": "1",
          "lastUpdated": "2023-03-13T05:08:58.009+00:00",
          "source": "#42QyaeWqVEGv153Z"
        },
        "active": true,
        "organization": {
          "reference": "Organization/81417c6a-a6ab-453c-a26b-c08791161043"
        },
        "specialty": [
          {
            "coding": [
              {
                "system": "http://snomed.info/sct",
                "code": "224540001",
                "display": "Community Health Worker"
              }
            ]
          }
        ],
        "location": [
          {
            "reference": "Location/81417c6a-a6ab-453c-a26b-c08791161044",
            "display": "Pleasantville PHC"
          }
        ]
      },
      "request": {
        "method": "PUT",
        "url": "PractitionerRole/81417c6a-a6ab-453c-a26b-c08791161045"
      }
    },
    {
      "resource": {
        "resourceType": "PractitionerRole",
        "id": "81417c6a-a6ab-453c-a26b-c08791161400",
        "meta": {
          "versionId": "1",
          "lastUpdated": "2023-03-13T05:08:58.009+00:00",
          "source": "#42QyaeWqVEGv153Z"
        },
        "active": true,
        "organization": {
          "reference": "Organization/81417c6a-a6ab-453c-a26b-c08791161043"
        },
        "specialty": [
          {
            "coding": [
              {
                "system": "http://snomed.info/sct",
                "code": "224534008",
                "display": "Auxiliary Nurse and Midwife"
              }
            ]
          }
        ],
        "location": [
          {
            "reference": "Location/81417c6a-a6ab-453c-a26b-c08791161044",
            "display": "Pleasantville PHC"
          }
        ]
      },
      "request": {
        "method": "PUT",
        "url": "PractitionerRole/81417c6a-a6ab-453c-a26b-c08791161400"
      }
    },
    {
      "resource": {
        "resourceType": "Organization",
        "id": "81417c6a-a6ab-453c-a26b-c08791161043",
        "name": "Zootopia Ministry of Health"
      },
      "request": {
        "method": "PUT",
        "url": "Organization/81417c6a-a6ab-453c-a26b-c08791161043"
      }
    },
    {
      "resource": {
        "resourceType": "Location",
        "id": "81417c6a-a6ab-453c-a26b-c08791161044",
        "status": "active",
        "name": "Pleasantville PHC",
        "mode": "instance"
      },
      "request": {
        "method": "PUT",
        "url": "Location/81417c6a-a6ab-453c-a26b-c08791161044"
      }
    },
    {
      "resource": {
        "resourceType": "Practitioner",
        "id": "81417c6a-a6ab-453c-a26b-c08791161046",
        "name": [
          {
            "use": "usual",
            "text": "Alice Frohealcareworker"
          }
        ],
        "gender": "female",
        "birthDate": "1995-11-05"
      },
      "request": {
        "method": "PUT",
        "url": "Practitioner/81417c6a-a6ab-453c-a26b-c08791161046"
      }
    },
    {
      "resource": {
        "resourceType": "Practitioner",
        "id": "81417c6a-a6ab-453c-a26b-c08791161047",
        "name": [
          {
            "use": "usual",
            "text": "Bob Comhealcareworker"
          }
        ],
        "gender": "male"
      },
      "request": {
        "method": "PUT",
        "url": "Practitioner/81417c6a-a6ab-453c-a26b-c08791161047"
      }
    }
  ]
}